"success","timeout","failed_images","failed_audio","failed_video","task","trial_type","trial_index","time_elapsed","internal_node_id","run_id","condition","recorded_at","source_code_version","ip","user_agent","device","browser","browser_version","platform","platform_version","referer","accept_language","participant_ID","view_history","rt","response","stimulus","image1","image2","image3","real_word","correct_choice","choices"
"true","false","[]","[]","[]","preload","preload","0","27","0.0-0.0","2","1","2024-04-09 07:21:12","970eb555d25350035b1a478df6c9206c","109.81.166.135","Mozilla/5.0 (Macintosh; Intel Mac OS X 10_15_7) AppleWebKit/537.36 (KHTML, like Gecko) Chrome/123.0.0.0 Safari/537.36","Macintosh","Chrome","123.0.0.0","OS X","10_15_7","null","en-GB,en-US;q=0.9,en;q=0.8","7labuwcym2f","","","","","","","","","",""
"","","","","","instructions","instructions","1","1984","0.0-1.0","2","1","2024-04-09 07:21:12","970eb555d25350035b1a478df6c9206c","109.81.166.135","Mozilla/5.0 (Macintosh; Intel Mac OS X 10_15_7) AppleWebKit/537.36 (KHTML, like Gecko) Chrome/123.0.0.0 Safari/537.36","Macintosh","Chrome","123.0.0.0","OS X","10_15_7","null","en-GB,en-US;q=0.9,en;q=0.8","7labuwcym2f","[{""page_index"":0,""viewing_time"":1133},{""page_index"":1,""viewing_time"":822}]","1956","","","","","","","",""
"","","","","","consent","instructions","2","2539","0.0-2.0","2","1","2024-04-09 07:21:12","970eb555d25350035b1a478df6c9206c","109.81.166.135","Mozilla/5.0 (Macintosh; Intel Mac OS X 10_15_7) AppleWebKit/537.36 (KHTML, like Gecko) Chrome/123.0.0.0 Safari/537.36","Macintosh","Chrome","123.0.0.0","OS X","10_15_7","null","en-GB,en-US;q=0.9,en;q=0.8","7labuwcym2f","[{""page_index"":0,""viewing_time"":555}]","555","","","","","","","",""
"","","","","","demographics","survey-html-form","3","15093","0.0-3.0","2","1","2024-04-09 07:21:12","970eb555d25350035b1a478df6c9206c","109.81.166.135","Mozilla/5.0 (Macintosh; Intel Mac OS X 10_15_7) AppleWebKit/537.36 (KHTML, like Gecko) Chrome/123.0.0.0 Safari/537.36","Macintosh","Chrome","123.0.0.0","OS X","10_15_7","null","en-GB,en-US;q=0.9,en;q=0.8","7labuwcym2f","","12549","{""Q1"":""b"",""Q2"":""99"",""Q3"":""kjsdf@test.com"",""Q4"":""a"",""Q5"":""a"",""feedback_comments"":""kjdshf kjdshf kjsdfh dskf""}","","","","","","",""
"","","","","","fixation","html-keyboard-response","4","17098","0.0-4.0-0.0","2","1","2024-04-09 07:21:12","970eb555d25350035b1a478df6c9206c","109.81.166.135","Mozilla/5.0 (Macintosh; Intel Mac OS X 10_15_7) AppleWebKit/537.36 (KHTML, like Gecko) Chrome/123.0.0.0 Safari/537.36","Macintosh","Chrome","123.0.0.0","OS X","10_15_7","null","en-GB,en-US;q=0.9,en;q=0.8","7labuwcym2f","","null","null","<div style=""font-size:30pt;"">+</div>","","","","","",""
"","","","","","lexical_decision","audio-button-response","5","17725","0.0-4.0-1.0","2","1","2024-04-09 07:21:12","970eb555d25350035b1a478df6c9206c","109.81.166.135","Mozilla/5.0 (Macintosh; Intel Mac OS X 10_15_7) AppleWebKit/537.36 (KHTML, like Gecko) Chrome/123.0.0.0 Safari/537.36","Macintosh","Chrome","123.0.0.0","OS X","10_15_7","null","en-GB,en-US;q=0.9,en;q=0.8","7labuwcym2f","","597","0","banana.wav","chair.png","banana.png","sheep.png","yes","banana.png","[""banana.png"",""chair.png"",""sheep.png""]"
"","","","","","fixation","html-keyboard-response","6","19731","0.0-4.0-0.1","2","1","2024-04-09 07:21:12","970eb555d25350035b1a478df6c9206c","109.81.166.135","Mozilla/5.0 (Macintosh; Intel Mac OS X 10_15_7) AppleWebKit/537.36 (KHTML, like Gecko) Chrome/123.0.0.0 Safari/537.36","Macintosh","Chrome","123.0.0.0","OS X","10_15_7","null","en-GB,en-US;q=0.9,en;q=0.8","7labuwcym2f","","null","null","<div style=""font-size:30pt;"">+</div>","","","","","",""
"","","","","","lexical_decision","audio-button-response","7","21163","0.0-4.0-1.1","2","1","2024-04-09 07:21:12","970eb555d25350035b1a478df6c9206c","109.81.166.135","Mozilla/5.0 (Macintosh; Intel Mac OS X 10_15_7) AppleWebKit/537.36 (KHTML, like Gecko) Chrome/123.0.0.0 Safari/537.36","Macintosh","Chrome","123.0.0.0","OS X","10_15_7","null","en-GB,en-US;q=0.9,en;q=0.8","7labuwcym2f","","1429","1","fox.wav","fox.png","hippo.png","cucumber.png","yes","fox.png","[""hippo.png"",""fox.png"",""cucumber.png""]"
"","","","","","fixation","html-keyboard-response","8","23166","0.0-4.0-0.2","2","1","2024-04-09 07:21:12","970eb555d25350035b1a478df6c9206c","109.81.166.135","Mozilla/5.0 (Macintosh; Intel Mac OS X 10_15_7) AppleWebKit/537.36 (KHTML, like Gecko) Chrome/123.0.0.0 Safari/537.36","Macintosh","Chrome","123.0.0.0","OS X","10_15_7","null","en-GB,en-US;q=0.9,en;q=0.8","7labuwcym2f","","null","null","<div style=""font-size:30pt;"">+</div>","","","","","",""
"","","","","","lexical_decision","audio-button-response","9","23650","0.0-4.0-1.2","2","1","2024-04-09 07:21:12","970eb555d25350035b1a478df6c9206c","109.81.166.135","Mozilla/5.0 (Macintosh; Intel Mac OS X 10_15_7) AppleWebKit/537.36 (KHTML, like Gecko) Chrome/123.0.0.0 Safari/537.36","Macintosh","Chrome","123.0.0.0","OS X","10_15_7","null","en-GB,en-US;q=0.9,en;q=0.8","7labuwcym2f","","485","2","sheep.wav","sheep.png","cheese.png","fox.png","yes","sheep.png","[""cheese.png"",""sheep.png"",""fox.png""]"
"","","","","","fixation","html-keyboard-response","10","25652","0.0-4.0-0.3","2","1","2024-04-09 07:21:12","970eb555d25350035b1a478df6c9206c","109.81.166.135","Mozilla/5.0 (Macintosh; Intel Mac OS X 10_15_7) AppleWebKit/537.36 (KHTML, like Gecko) Chrome/123.0.0.0 Safari/537.36","Macintosh","Chrome","123.0.0.0","OS X","10_15_7","null","en-GB,en-US;q=0.9,en;q=0.8","7labuwcym2f","","null","null","<div style=""font-size:30pt;"">+</div>","","","","","",""
"","","","","","lexical_decision","audio-button-response","11","26104","0.0-4.0-1.3","2","1","2024-04-09 07:21:12","970eb555d25350035b1a478df6c9206c","109.81.166.135","Mozilla/5.0 (Macintosh; Intel Mac OS X 10_15_7) AppleWebKit/537.36 (KHTML, like Gecko) Chrome/123.0.0.0 Safari/537.36","Macintosh","Chrome","123.0.0.0","OS X","10_15_7","null","en-GB,en-US;q=0.9,en;q=0.8","7labuwcym2f","","453","1","banxna.wav","banana.png","sheep.png","cheese.png","no","banana.png","[""sheep.png"",""banana.png"",""cheese.png""]"
"","","","","","fixation","html-keyboard-response","12","28107","0.0-4.0-0.4","2","1","2024-04-09 07:21:12","970eb555d25350035b1a478df6c9206c","109.81.166.135","Mozilla/5.0 (Macintosh; Intel Mac OS X 10_15_7) AppleWebKit/537.36 (KHTML, like Gecko) Chrome/123.0.0.0 Safari/537.36","Macintosh","Chrome","123.0.0.0","OS X","10_15_7","null","en-GB,en-US;q=0.9,en;q=0.8","7labuwcym2f","","null","null","<div style=""font-size:30pt;"">+</div>","","","","","",""
"","","","","","lexical_decision","audio-button-response","13","28533","0.0-4.0-1.4","2","1","2024-04-09 07:21:12","970eb555d25350035b1a478df6c9206c","109.81.166.135","Mozilla/5.0 (Macintosh; Intel Mac OS X 10_15_7) AppleWebKit/537.36 (KHTML, like Gecko) Chrome/123.0.0.0 Safari/537.36","Macintosh","Chrome","123.0.0.0","OS X","10_15_7","null","en-GB,en-US;q=0.9,en;q=0.8","7labuwcym2f","","421","1","pumpkxn.wav","hippo.png","cucumber.png","pumpkin.png","no","pumpkin.png","[""cucumber.png"",""hippo.png"",""pumpkin.png""]"
"","","","","","fixation","html-keyboard-response","14","30539","0.0-4.0-0.5","2","1","2024-04-09 07:21:12","970eb555d25350035b1a478df6c9206c","109.81.166.135","Mozilla/5.0 (Macintosh; Intel Mac OS X 10_15_7) AppleWebKit/537.36 (KHTML, like Gecko) Chrome/123.0.0.0 Safari/537.36","Macintosh","Chrome","123.0.0.0","OS X","10_15_7","null","en-GB,en-US;q=0.9,en;q=0.8","7labuwcym2f","","null","null","<div style=""font-size:30pt;"">+</div>","","","","","",""
"","","","","","lexical_decision","audio-button-response","15","30916","0.0-4.0-1.5","2","1","2024-04-09 07:21:12","970eb555d25350035b1a478df6c9206c","109.81.166.135","Mozilla/5.0 (Macintosh; Intel Mac OS X 10_15_7) AppleWebKit/537.36 (KHTML, like Gecko) Chrome/123.0.0.0 Safari/537.36","Macintosh","Chrome","123.0.0.0","OS X","10_15_7","null","en-GB,en-US;q=0.9,en;q=0.8","7labuwcym2f","","373","2","heart.wav","cucumber.png","pumpkin.png","heart.png","yes","heart.png","[""pumpkin.png"",""cucumber.png"",""heart.png""]"
"","","","","","fixation","html-keyboard-response","16","32923","0.0-4.0-0.6","2","1","2024-04-09 07:21:12","970eb555d25350035b1a478df6c9206c","109.81.166.135","Mozilla/5.0 (Macintosh; Intel Mac OS X 10_15_7) AppleWebKit/537.36 (KHTML, like Gecko) Chrome/123.0.0.0 Safari/537.36","Macintosh","Chrome","123.0.0.0","OS X","10_15_7","null","en-GB,en-US;q=0.9,en;q=0.8","7labuwcym2f","","null","null","<div style=""font-size:30pt;"">+</div>","","","","","",""
"","","","","","lexical_decision","audio-button-response","17","33508","0.0-4.0-1.6","2","1","2024-04-09 07:21:12","970eb555d25350035b1a478df6c9206c","109.81.166.135","Mozilla/5.0 (Macintosh; Intel Mac OS X 10_15_7) AppleWebKit/537.36 (KHTML, like Gecko) Chrome/123.0.0.0 Safari/537.36","Macintosh","Chrome","123.0.0.0","OS X","10_15_7","null","en-GB,en-US;q=0.9,en;q=0.8","7labuwcym2f","","581","1","cheesx.wav","cheese.png","fox.png","hippo.png","no","cheese.png","[""fox.png"",""cheese.png"",""hippo.png""]"
"","","","","","fixation","html-keyboard-response","18","35512","0.0-4.0-0.7","2","1","2024-04-09 07:21:12","970eb555d25350035b1a478df6c9206c","109.81.166.135","Mozilla/5.0 (Macintosh; Intel Mac OS X 10_15_7) AppleWebKit/537.36 (KHTML, like Gecko) Chrome/123.0.0.0 Safari/537.36","Macintosh","Chrome","123.0.0.0","OS X","10_15_7","null","en-GB,en-US;q=0.9,en;q=0.8","7labuwcym2f","","null","null","<div style=""font-size:30pt;"">+</div>","","","","","",""
"","","","","","lexical_decision","audio-button-response","19","36116","0.0-4.0-1.7","2","1","2024-04-09 07:21:12","970eb555d25350035b1a478df6c9206c","109.81.166.135","Mozilla/5.0 (Macintosh; Intel Mac OS X 10_15_7) AppleWebKit/537.36 (KHTML, like Gecko) Chrome/123.0.0.0 Safari/537.36","Macintosh","Chrome","123.0.0.0","OS X","10_15_7","null","en-GB,en-US;q=0.9,en;q=0.8","7labuwcym2f","","603","0","pea.wav","heart.png","pea.png","chair.png","yes","pea.png","[""pea.png"",""heart.png"",""chair.png""]"
"","","","","","fixation","html-keyboard-response","20","38118","0.0-4.0-0.8","2","1","2024-04-09 07:21:12","970eb555d25350035b1a478df6c9206c","109.81.166.135","Mozilla/5.0 (Macintosh; Intel Mac OS X 10_15_7) AppleWebKit/537.36 (KHTML, like Gecko) Chrome/123.0.0.0 Safari/537.36","Macintosh","Chrome","123.0.0.0","OS X","10_15_7","null","en-GB,en-US;q=0.9,en;q=0.8","7labuwcym2f","","null","null","<div style=""font-size:30pt;"">+</div>","","","","","",""
"","","","","","lexical_decision","audio-button-response","21","38717","0.0-4.0-1.8","2","1","2024-04-09 07:21:12","970eb555d25350035b1a478df6c9206c","109.81.166.135","Mozilla/5.0 (Macintosh; Intel Mac OS X 10_15_7) AppleWebKit/537.36 (KHTML, like Gecko) Chrome/123.0.0.0 Safari/537.36","Macintosh","Chrome","123.0.0.0","OS X","10_15_7","null","en-GB,en-US;q=0.9,en;q=0.8","7labuwcym2f","","597","1","chxir.wav","pea.png","chair.png","banana.png","no","chair.png","[""chair.png"",""pea.png"",""banana.png""]"
"","","","","","fixation","html-keyboard-response","22","40720","0.0-4.0-0.9","2","1","2024-04-09 07:21:12","970eb555d25350035b1a478df6c9206c","109.81.166.135","Mozilla/5.0 (Macintosh; Intel Mac OS X 10_15_7) AppleWebKit/537.36 (KHTML, like Gecko) Chrome/123.0.0.0 Safari/537.36","Macintosh","Chrome","123.0.0.0","OS X","10_15_7","null","en-GB,en-US;q=0.9,en;q=0.8","7labuwcym2f","","null","null","<div style=""font-size:30pt;"">+</div>","","","","","",""
"","","","","","lexical_decision","audio-button-response","23","41420","0.0-4.0-1.9","2","1","2024-04-09 07:21:12","970eb555d25350035b1a478df6c9206c","109.81.166.135","Mozilla/5.0 (Macintosh; Intel Mac OS X 10_15_7) AppleWebKit/537.36 (KHTML, like Gecko) Chrome/123.0.0.0 Safari/537.36","Macintosh","Chrome","123.0.0.0","OS X","10_15_7","null","en-GB,en-US;q=0.9,en;q=0.8","7labuwcym2f","","699","2","pxa.wav","pumpkin.png","heart.png","pea.png","no","pea.png","[""heart.png"",""pumpkin.png"",""pea.png""]"
"","","","","","feedback","survey-html-form","24","50266","0.0-5.0","2","1","2024-04-09 07:21:12","970eb555d25350035b1a478df6c9206c","109.81.166.135","Mozilla/5.0 (Macintosh; Intel Mac OS X 10_15_7) AppleWebKit/537.36 (KHTML, like Gecko) Chrome/123.0.0.0 Safari/537.36","Macintosh","Chrome","123.0.0.0","OS X","10_15_7","null","en-GB,en-US;q=0.9,en;q=0.8","7labuwcym2f","","8845","{""feedback_ease"":""difficult"",""feedback_comments"":""kjdfhksdj sdkjf sdkjfhk sdf""}","","","","","","",""
