"success","timeout","failed_images","failed_audio","failed_video","task","trial_type","trial_index","time_elapsed","internal_node_id","run_id","condition","recorded_at","source_code_version","ip","user_agent","device","browser","browser_version","platform","platform_version","referer","accept_language","participant_ID","view_history","rt","response","stimulus","image1","image2","image3","real_word","correct_choice","choices"
"true","false","[]","[]","[]","preload","preload","0","46","0.0-0.0","4","1","2024-04-09 07:23:14","970eb555d25350035b1a478df6c9206c","109.81.166.135","Mozilla/5.0 (Macintosh; Intel Mac OS X 10_15_7) AppleWebKit/537.36 (KHTML, like Gecko) Chrome/123.0.0.0 Safari/537.36","Macintosh","Chrome","123.0.0.0","OS X","10_15_7","null","en-GB,en-US;q=0.9,en;q=0.8","8o34ygt6clr","","","","","","","","","",""
"","","","","","instructions","instructions","1","1859","0.0-1.0","4","1","2024-04-09 07:23:14","970eb555d25350035b1a478df6c9206c","109.81.166.135","Mozilla/5.0 (Macintosh; Intel Mac OS X 10_15_7) AppleWebKit/537.36 (KHTML, like Gecko) Chrome/123.0.0.0 Safari/537.36","Macintosh","Chrome","123.0.0.0","OS X","10_15_7","null","en-GB,en-US;q=0.9,en;q=0.8","8o34ygt6clr","[{""page_index"":0,""viewing_time"":779},{""page_index"":1,""viewing_time"":1033}]","1812","","","","","","","",""
"","","","","","consent","instructions","2","2342","0.0-2.0","4","1","2024-04-09 07:23:14","970eb555d25350035b1a478df6c9206c","109.81.166.135","Mozilla/5.0 (Macintosh; Intel Mac OS X 10_15_7) AppleWebKit/537.36 (KHTML, like Gecko) Chrome/123.0.0.0 Safari/537.36","Macintosh","Chrome","123.0.0.0","OS X","10_15_7","null","en-GB,en-US;q=0.9,en;q=0.8","8o34ygt6clr","[{""page_index"":0,""viewing_time"":482}]","482","","","","","","","",""
"","","","","","demographics","survey-html-form","3","14615","0.0-3.0","4","1","2024-04-09 07:23:14","970eb555d25350035b1a478df6c9206c","109.81.166.135","Mozilla/5.0 (Macintosh; Intel Mac OS X 10_15_7) AppleWebKit/537.36 (KHTML, like Gecko) Chrome/123.0.0.0 Safari/537.36","Macintosh","Chrome","123.0.0.0","OS X","10_15_7","null","en-GB,en-US;q=0.9,en;q=0.8","8o34ygt6clr","","12268","{""Q1"":""d"",""Q2"":""99"",""Q3"":""skdjfhlkdhf@test.com"",""Q4"":""a"",""Q5"":""a"",""feedback_comments"":""kjdshfkj hdfskjh fkjsdhf skdjfh""}","","","","","","",""
"","","","","","fixation","html-keyboard-response","4","16619","0.0-4.0-0.0","4","1","2024-04-09 07:23:14","970eb555d25350035b1a478df6c9206c","109.81.166.135","Mozilla/5.0 (Macintosh; Intel Mac OS X 10_15_7) AppleWebKit/537.36 (KHTML, like Gecko) Chrome/123.0.0.0 Safari/537.36","Macintosh","Chrome","123.0.0.0","OS X","10_15_7","null","en-GB,en-US;q=0.9,en;q=0.8","8o34ygt6clr","","null","null","<div style=""font-size:30pt;"">+</div>","","","","","",""
"","","","","","lexical_decision","audio-button-response","5","17125","0.0-4.0-1.0","4","1","2024-04-09 07:23:14","970eb555d25350035b1a478df6c9206c","109.81.166.135","Mozilla/5.0 (Macintosh; Intel Mac OS X 10_15_7) AppleWebKit/537.36 (KHTML, like Gecko) Chrome/123.0.0.0 Safari/537.36","Macintosh","Chrome","123.0.0.0","OS X","10_15_7","null","en-GB,en-US;q=0.9,en;q=0.8","8o34ygt6clr","","475","1","sheep.wav","sheep.png","cheese.png","fox.png","yes","sheep.png","[""fox.png"",""cheese.png"",""sheep.png""]"
"","","","","","fixation","html-keyboard-response","6","19128","0.0-4.0-0.1","4","1","2024-04-09 07:23:14","970eb555d25350035b1a478df6c9206c","109.81.166.135","Mozilla/5.0 (Macintosh; Intel Mac OS X 10_15_7) AppleWebKit/537.36 (KHTML, like Gecko) Chrome/123.0.0.0 Safari/537.36","Macintosh","Chrome","123.0.0.0","OS X","10_15_7","null","en-GB,en-US;q=0.9,en;q=0.8","8o34ygt6clr","","null","null","<div style=""font-size:30pt;"">+</div>","","","","","",""
"","","","","","lexical_decision","audio-button-response","7","19487","0.0-4.0-1.1","4","1","2024-04-09 07:23:14","970eb555d25350035b1a478df6c9206c","109.81.166.135","Mozilla/5.0 (Macintosh; Intel Mac OS X 10_15_7) AppleWebKit/537.36 (KHTML, like Gecko) Chrome/123.0.0.0 Safari/537.36","Macintosh","Chrome","123.0.0.0","OS X","10_15_7","null","en-GB,en-US;q=0.9,en;q=0.8","8o34ygt6clr","","357","0","heart.wav","cucumber.png","pumpkin.png","heart.png","yes","heart.png","[""heart.png"",""pumpkin.png"",""cucumber.png""]"
"","","","","","fixation","html-keyboard-response","8","21493","0.0-4.0-0.2","4","1","2024-04-09 07:23:14","970eb555d25350035b1a478df6c9206c","109.81.166.135","Mozilla/5.0 (Macintosh; Intel Mac OS X 10_15_7) AppleWebKit/537.36 (KHTML, like Gecko) Chrome/123.0.0.0 Safari/537.36","Macintosh","Chrome","123.0.0.0","OS X","10_15_7","null","en-GB,en-US;q=0.9,en;q=0.8","8o34ygt6clr","","null","null","<div style=""font-size:30pt;"">+</div>","","","","","",""
"","","","","","lexical_decision","audio-button-response","9","21966","0.0-4.0-1.2","4","1","2024-04-09 07:23:14","970eb555d25350035b1a478df6c9206c","109.81.166.135","Mozilla/5.0 (Macintosh; Intel Mac OS X 10_15_7) AppleWebKit/537.36 (KHTML, like Gecko) Chrome/123.0.0.0 Safari/537.36","Macintosh","Chrome","123.0.0.0","OS X","10_15_7","null","en-GB,en-US;q=0.9,en;q=0.8","8o34ygt6clr","","475","1","banxna.wav","banana.png","sheep.png","cheese.png","no","banana.png","[""cheese.png"",""sheep.png"",""banana.png""]"
"","","","","","fixation","html-keyboard-response","10","23973","0.0-4.0-0.3","4","1","2024-04-09 07:23:14","970eb555d25350035b1a478df6c9206c","109.81.166.135","Mozilla/5.0 (Macintosh; Intel Mac OS X 10_15_7) AppleWebKit/537.36 (KHTML, like Gecko) Chrome/123.0.0.0 Safari/537.36","Macintosh","Chrome","123.0.0.0","OS X","10_15_7","null","en-GB,en-US;q=0.9,en;q=0.8","8o34ygt6clr","","null","null","<div style=""font-size:30pt;"">+</div>","","","","","",""
"","","","","","lexical_decision","audio-button-response","11","24362","0.0-4.0-1.3","4","1","2024-04-09 07:23:14","970eb555d25350035b1a478df6c9206c","109.81.166.135","Mozilla/5.0 (Macintosh; Intel Mac OS X 10_15_7) AppleWebKit/537.36 (KHTML, like Gecko) Chrome/123.0.0.0 Safari/537.36","Macintosh","Chrome","123.0.0.0","OS X","10_15_7","null","en-GB,en-US;q=0.9,en;q=0.8","8o34ygt6clr","","389","0","chxir.wav","pea.png","chair.png","banana.png","no","chair.png","[""banana.png"",""chair.png"",""pea.png""]"
"","","","","","fixation","html-keyboard-response","12","26364","0.0-4.0-0.4","4","1","2024-04-09 07:23:14","970eb555d25350035b1a478df6c9206c","109.81.166.135","Mozilla/5.0 (Macintosh; Intel Mac OS X 10_15_7) AppleWebKit/537.36 (KHTML, like Gecko) Chrome/123.0.0.0 Safari/537.36","Macintosh","Chrome","123.0.0.0","OS X","10_15_7","null","en-GB,en-US;q=0.9,en;q=0.8","8o34ygt6clr","","null","null","<div style=""font-size:30pt;"">+</div>","","","","","",""
"","","","","","lexical_decision","audio-button-response","13","27355","0.0-4.0-1.4","4","1","2024-04-09 07:23:14","970eb555d25350035b1a478df6c9206c","109.81.166.135","Mozilla/5.0 (Macintosh; Intel Mac OS X 10_15_7) AppleWebKit/537.36 (KHTML, like Gecko) Chrome/123.0.0.0 Safari/537.36","Macintosh","Chrome","123.0.0.0","OS X","10_15_7","null","en-GB,en-US;q=0.9,en;q=0.8","8o34ygt6clr","","992","2","banana.wav","chair.png","banana.png","sheep.png","yes","banana.png","[""sheep.png"",""banana.png"",""chair.png""]"
"","","","","","fixation","html-keyboard-response","14","29357","0.0-4.0-0.5","4","1","2024-04-09 07:23:14","970eb555d25350035b1a478df6c9206c","109.81.166.135","Mozilla/5.0 (Macintosh; Intel Mac OS X 10_15_7) AppleWebKit/537.36 (KHTML, like Gecko) Chrome/123.0.0.0 Safari/537.36","Macintosh","Chrome","123.0.0.0","OS X","10_15_7","null","en-GB,en-US;q=0.9,en;q=0.8","8o34ygt6clr","","null","null","<div style=""font-size:30pt;"">+</div>","","","","","",""
"","","","","","lexical_decision","audio-button-response","15","29955","0.0-4.0-1.5","4","1","2024-04-09 07:23:14","970eb555d25350035b1a478df6c9206c","109.81.166.135","Mozilla/5.0 (Macintosh; Intel Mac OS X 10_15_7) AppleWebKit/537.36 (KHTML, like Gecko) Chrome/123.0.0.0 Safari/537.36","Macintosh","Chrome","123.0.0.0","OS X","10_15_7","null","en-GB,en-US;q=0.9,en;q=0.8","8o34ygt6clr","","597","0","pxa.wav","pumpkin.png","heart.png","pea.png","no","pea.png","[""pea.png"",""heart.png"",""pumpkin.png""]"
"","","","","","fixation","html-keyboard-response","16","31959","0.0-4.0-0.6","4","1","2024-04-09 07:23:14","970eb555d25350035b1a478df6c9206c","109.81.166.135","Mozilla/5.0 (Macintosh; Intel Mac OS X 10_15_7) AppleWebKit/537.36 (KHTML, like Gecko) Chrome/123.0.0.0 Safari/537.36","Macintosh","Chrome","123.0.0.0","OS X","10_15_7","null","en-GB,en-US;q=0.9,en;q=0.8","8o34ygt6clr","","null","null","<div style=""font-size:30pt;"">+</div>","","","","","",""
"","","","","","lexical_decision","audio-button-response","17","32459","0.0-4.0-1.6","4","1","2024-04-09 07:23:14","970eb555d25350035b1a478df6c9206c","109.81.166.135","Mozilla/5.0 (Macintosh; Intel Mac OS X 10_15_7) AppleWebKit/537.36 (KHTML, like Gecko) Chrome/123.0.0.0 Safari/537.36","Macintosh","Chrome","123.0.0.0","OS X","10_15_7","null","en-GB,en-US;q=0.9,en;q=0.8","8o34ygt6clr","","496","1","pumpkxn.wav","hippo.png","cucumber.png","pumpkin.png","no","pumpkin.png","[""pumpkin.png"",""cucumber.png"",""hippo.png""]"
"","","","","","fixation","html-keyboard-response","18","34461","0.0-4.0-0.7","4","1","2024-04-09 07:23:14","970eb555d25350035b1a478df6c9206c","109.81.166.135","Mozilla/5.0 (Macintosh; Intel Mac OS X 10_15_7) AppleWebKit/537.36 (KHTML, like Gecko) Chrome/123.0.0.0 Safari/537.36","Macintosh","Chrome","123.0.0.0","OS X","10_15_7","null","en-GB,en-US;q=0.9,en;q=0.8","8o34ygt6clr","","null","null","<div style=""font-size:30pt;"">+</div>","","","","","",""
"","","","","","lexical_decision","audio-button-response","19","35024","0.0-4.0-1.7","4","1","2024-04-09 07:23:14","970eb555d25350035b1a478df6c9206c","109.81.166.135","Mozilla/5.0 (Macintosh; Intel Mac OS X 10_15_7) AppleWebKit/537.36 (KHTML, like Gecko) Chrome/123.0.0.0 Safari/537.36","Macintosh","Chrome","123.0.0.0","OS X","10_15_7","null","en-GB,en-US;q=0.9,en;q=0.8","8o34ygt6clr","","560","0","cheesx.wav","cheese.png","fox.png","hippo.png","no","cheese.png","[""hippo.png"",""fox.png"",""cheese.png""]"
"","","","","","fixation","html-keyboard-response","20","37026","0.0-4.0-0.8","4","1","2024-04-09 07:23:14","970eb555d25350035b1a478df6c9206c","109.81.166.135","Mozilla/5.0 (Macintosh; Intel Mac OS X 10_15_7) AppleWebKit/537.36 (KHTML, like Gecko) Chrome/123.0.0.0 Safari/537.36","Macintosh","Chrome","123.0.0.0","OS X","10_15_7","null","en-GB,en-US;q=0.9,en;q=0.8","8o34ygt6clr","","null","null","<div style=""font-size:30pt;"">+</div>","","","","","",""
"","","","","","lexical_decision","audio-button-response","21","37718","0.0-4.0-1.8","4","1","2024-04-09 07:23:14","970eb555d25350035b1a478df6c9206c","109.81.166.135","Mozilla/5.0 (Macintosh; Intel Mac OS X 10_15_7) AppleWebKit/537.36 (KHTML, like Gecko) Chrome/123.0.0.0 Safari/537.36","Macintosh","Chrome","123.0.0.0","OS X","10_15_7","null","en-GB,en-US;q=0.9,en;q=0.8","8o34ygt6clr","","688","2","pea.wav","heart.png","pea.png","chair.png","yes","pea.png","[""chair.png"",""pea.png"",""heart.png""]"
"","","","","","fixation","html-keyboard-response","22","39721","0.0-4.0-0.9","4","1","2024-04-09 07:23:14","970eb555d25350035b1a478df6c9206c","109.81.166.135","Mozilla/5.0 (Macintosh; Intel Mac OS X 10_15_7) AppleWebKit/537.36 (KHTML, like Gecko) Chrome/123.0.0.0 Safari/537.36","Macintosh","Chrome","123.0.0.0","OS X","10_15_7","null","en-GB,en-US;q=0.9,en;q=0.8","8o34ygt6clr","","null","null","<div style=""font-size:30pt;"">+</div>","","","","","",""
"","","","","","lexical_decision","audio-button-response","23","41228","0.0-4.0-1.9","4","1","2024-04-09 07:23:14","970eb555d25350035b1a478df6c9206c","109.81.166.135","Mozilla/5.0 (Macintosh; Intel Mac OS X 10_15_7) AppleWebKit/537.36 (KHTML, like Gecko) Chrome/123.0.0.0 Safari/537.36","Macintosh","Chrome","123.0.0.0","OS X","10_15_7","null","en-GB,en-US;q=0.9,en;q=0.8","8o34ygt6clr","","1504","0","fox.wav","fox.png","hippo.png","cucumber.png","yes","fox.png","[""cucumber.png"",""hippo.png"",""fox.png""]"
"","","","","","feedback","survey-html-form","24","52844","0.0-5.0","4","1","2024-04-09 07:23:14","970eb555d25350035b1a478df6c9206c","109.81.166.135","Mozilla/5.0 (Macintosh; Intel Mac OS X 10_15_7) AppleWebKit/537.36 (KHTML, like Gecko) Chrome/123.0.0.0 Safari/537.36","Macintosh","Chrome","123.0.0.0","OS X","10_15_7","null","en-GB,en-US;q=0.9,en;q=0.8","8o34ygt6clr","","11616","{""feedback_ease"":""difficult"",""feedback_comments"":""sdjkfhkjsdhf kjsdhf kjsdhf jks df ksdjfhkjdsfh kjsdfh dksjfh ksjdf hskdf""}","","","","","","",""
